File: strain to stress.csv
No.,Time( s) ,Elongation( mm) ,Force( N) ,Stress( MPa) ,Strain( %)
1,0.095,0,0,0,0
3,0.298,0,0,0,0
5,0.508,0.005,2,0.037,0.006
7,0.784,0.009,4,0.076,0.009
9,0.994,0.013,6,0.115,0.013
11,1.246,0.016,8,0.152,0.018
13,1.486,0.02,10,0.189,0.022
15,1.738,0.024,12,0.234,0.026
17,1.954,0.028,14,0.273,0.03
19,2.194,0.032,16,0.312,0.035
21,2.428,0.036,19,0.353,0.039
23,2.656,0.04,21,0.394,0.043
25,2.884,0.044,23,0.433,0.047
27,3.058,0.046,25,0.468,0.05
29,3.328,0.051,27,0.507,0.055
31,3.568,0.055,29,0.544,0.059
33,3.784,0.059,31,0.585,0.063
35,3.946,0.061,33,0.617,0.066
37,4.156,0.065,34,0.65,0.07
39,4.348,0.068,36,0.68,0.073
41,4.534,0.071,38,0.713,0.077
43,4.769,0.075,40,0.749,0.081
45,4.954,0.078,41,0.786,0.084
47,5.164,0.082,43,0.821,0.089
49,5.374,0.085,45,0.853,0.092
51,5.548,0.088,47,0.886,0.095
53,5.764,0.092,49,0.919,0.099
55,5.986,0.095,50,0.953,0.103
57,6.178,0.099,52,0.988,0.106
59,6.436,0.103,54,1.022,0.111
61,6.616,0.106,56,1.059,0.115
63,6.796,0.109,58,1.094,0.118
65,6.946,0.112,59,1.122,0.121
67,7.108,0.114,61,1.148,0.123
69,7.294,0.117,62,1.176,0.127
71,7.528,0.121,64,1.209,0.131
73,7.726,0.124,66,1.243,0.134
75,7.918,0.127,67,1.276,0.138
77,8.134,0.131,69,1.309,0.142
79,8.338,0.134,71,1.343,0.145
81,8.548,0.138,73,1.378,0.149
83,8.746,0.142,75,1.413,0.153
85,8.944,0.145,76,1.447,0.157
87,9.154,0.149,78,1.48,0.16
89,9.346,0.152,80,1.514,0.164
91,9.568,0.155,82,1.547,0.168
93,9.766,0.159,83,1.581,0.171
95,9.958,0.162,85,1.614,0.175
97,10.198,0.166,87,1.649,0.179
99,10.384,0.169,89,1.683,0.182
101,10.564,0.172,91,1.716,0.186
103,10.816,0.176,92,1.75,0.19
105,10.966,0.179,94,1.783,0.193
107,11.188,0.182,96,1.815,0.197
109,11.374,0.185,97,1.846,0.2
111,11.548,0.188,99,1.878,0.203
113,11.716,0.191,101,1.906,0.206
115,11.926,0.195,102,1.937,0.21
117,12.136,0.198,104,1.969,0.214
119,12.334,0.202,106,2.002,0.218
121,12.568,0.206,108,2.037,0.222
123,12.748,0.209,109,2.073,0.225
125,12.958,0.212,111,2.108,0.229
127,13.174,0.216,113,2.142,0.233
129,13.366,0.219,115,2.175,0.236
131,13.546,0.222,116,2.205,0.24
133,13.768,0.225,118,2.236,0.244
135,13.978,0.229,120,2.27,0.247
137,14.206,0.233,122,2.305,0.252
139,14.386,0.236,123,2.338,0.255
141,14.548,0.238,125,2.37,0.257
143,14.716,0.242,127,2.398,0.261
145,14.914,0.245,128,2.428,0.264
147,15.076,0.247,130,2.455,0.267
149,15.268,0.25,131,2.485,0.27
151,15.466,0.254,133,2.515,0.274
153,15.646,0.256,134,2.546,0.277
155,15.856,0.26,136,2.578,0.281
157,16.018,0.263,138,2.608,0.284
159,16.228,0.267,139,2.639,0.288
161,16.438,0.27,141,2.671,0.292
163,16.636,0.274,143,2.706,0.295
165,16.846,0.277,145,2.741,0.299
167,17.026,0.28,146,2.773,0.302
169,17.224,0.283,148,2.805,0.306
171,17.386,0.286,150,2.834,0.309
173,17.608,0.29,151,2.866,0.313
175,17.776,0.292,153,2.894,0.316
177,17.968,0.295,154,2.923,0.319
179,18.154,0.299,156,2.953,0.322
181,18.358,0.302,157,2.983,0.326
183,18.538,0.305,159,3.014,0.329
185,18.796,0.31,161,3.05,0.334
187,18.958,0.312,163,3.083,0.337
189,19.174,0.316,165,3.117,0.341
191,19.408,0.32,166,3.15,0.345
193,19.576,0.322,168,3.183,0.348
195,19.786,0.326,170,3.215,0.352
197,19.978,0.329,171,3.247,0.355
199,20.188,0.333,173,3.28,0.359
201,20.386,0.336,175,3.313,0.363
203,20.584,0.339,177,3.349,0.366
205,20.776,0.342,178,3.38,0.37
207,20.956,0.346,180,3.41,0.373
209,21.178,0.35,182,3.442,0.377
211,21.388,0.353,183,3.473,0.381
213,21.574,0.356,185,3.507,0.384
215,21.766,0.359,187,3.536,0.387
217,21.934,0.362,188,3.566,0.391
219,22.138,0.365,190,3.596,0.394
221,22.324,0.368,191,3.624,0.398
223,22.498,0.371,193,3.653,0.401
225,22.678,0.374,194,3.683,0.404
227,22.876,0.378,196,3.711,0.408
229,23.044,0.38,197,3.739,0.411
231,23.248,0.384,199,3.769,0.415
233,23.458,0.387,201,3.8,0.418
235,23.698,0.391,202,3.834,0.422
237,23.884,0.394,204,3.867,0.426
239,24.046,0.397,206,3.899,0.429
241,24.256,0.401,207,3.928,0.433
243,24.406,0.403,209,3.958,0.436
245,24.586,0.407,210,3.986,0.439
247,24.796,0.41,212,4.014,0.442
249,24.946,0.412,213,4.042,0.445
251,25.144,0.416,215,4.069,0.449
253,25.348,0.419,216,4.097,0.452
255,25.576,0.423,218,4.129,0.457
257,25.786,0.426,220,4.162,0.46
259,26.008,0.43,221,4.194,0.464
261,26.236,0.434,223,4.227,0.469
263,26.446,0.437,225,4.259,0.472
265,26.656,0.441,227,4.29,0.476
267,26.824,0.443,228,4.318,0.479
269,27.016,0.446,229,4.344,0.482
271,27.208,0.45,231,4.37,0.485
273,27.388,0.453,232,4.398,0.489
275,27.574,0.456,234,4.426,0.492
277,27.748,0.459,235,4.45,0.496
279,27.934,0.462,236,4.478,0.499
281,28.126,0.465,238,4.504,0.502
283,28.336,0.469,239,4.534,0.507
285,28.528,0.472,241,4.562,0.51
287,28.708,0.475,242,4.591,0.513
289,28.906,0.479,244,4.617,0.517
291,29.068,0.481,245,4.643,0.519
293,29.278,0.485,247,4.669,0.523
295,29.494,0.488,248,4.697,0.527
297,29.674,0.491,249,4.725,0.53
299,29.878,0.495,251,4.755,0.534
301,30.046,0.497,253,4.783,0.537
303,30.226,0.5,254,4.81,0.54
305,30.448,0.504,256,4.84,0.545
307,30.646,0.507,257,4.872,0.548
309,30.856,0.51,259,4.905,0.551
311,31.036,0.514,261,4.937,0.555
313,31.216,0.517,262,4.966,0.558
315,31.366,0.519,264,4.994,0.561
317,31.564,0.523,265,5.022,0.564
319,31.744,0.525,267,5.052,0.567
321,31.936,0.529,268,5.083,0.571
323,32.128,0.532,270,5.115,0.575
325,32.338,0.536,272,5.148,0.578
327,32.548,0.539,274,5.182,0.583
329,32.734,0.543,275,5.215,0.586
331,32.938,0.546,277,5.247,0.589
333,33.136,0.549,279,5.28,0.593
335,33.334,0.552,280,5.312,0.597
337,33.544,0.556,282,5.345,0.6
339,33.718,0.559,284,5.375,0.604
341,33.916,0.562,285,5.407,0.607
343,34.108,0.565,287,5.438,0.61
345,34.276,0.568,289,5.47,0.614
347,34.456,0.571,290,5.498,0.616
349,34.678,0.575,292,5.527,0.621
351,34.876,0.578,294,5.559,0.624
353,35.044,0.581,295,5.591,0.627
355,35.254,0.584,297,5.62,0.631
357,35.446,0.587,298,5.652,0.634
359,35.596,0.59,300,5.68,0.637
361,35.806,0.593,301,5.709,0.641
363,35.974,0.596,303,5.739,0.644
365,36.184,0.6,305,5.771,0.648
367,36.406,0.604,306,5.804,0.652
369,36.586,0.607,308,5.838,0.655
371,36.808,0.611,310,5.869,0.659
373,36.994,0.614,312,5.901,0.663
375,37.204,0.617,313,5.934,0.666
377,37.414,0.621,315,5.966,0.67
379,37.594,0.623,317,5.999,0.673
381,37.816,0.627,318,6.031,0.677
383,37.996,0.63,320,6.062,0.681
385,38.206,0.634,322,6.092,0.685
387,38.404,0.637,323,6.124,0.688
389,38.566,0.639,325,6.153,0.691
391,38.764,0.643,326,6.181,0.694
393,38.938,0.646,328,6.209,0.697
395,39.136,0.649,329,6.239,0.701
397,39.304,0.652,331,6.265,0.704
399,39.508,0.655,332,6.294,0.708
401,39.676,0.658,334,6.322,0.711
403,39.874,0.662,335,6.352,0.715
405,40.036,0.665,337,6.38,0.718
407,40.246,0.668,338,6.41,0.721
409,40.438,0.671,340,6.437,0.724
411,40.618,0.674,341,6.467,0.728
413,40.816,0.677,343,6.495,0.731
415,40.966,0.679,344,6.521,0.734
417,41.164,0.683,346,6.547,0.738
419,41.368,0.686,347,6.575,0.741
421,41.548,0.69,349,6.605,0.745
423,41.746,0.693,350,6.632,0.748
425,41.914,0.696,352,6.66,0.751
427,42.124,0.699,353,6.688,0.755
429,42.346,0.703,355,6.718,0.759
431,42.508,0.705,356,6.748,0.762
433,42.706,0.709,358,6.776,0.765
435,42.898,0.712,359,6.805,0.769
437,43.066,0.715,361,6.835,0.772
439,43.264,0.718,362,6.865,0.776
441,43.474,0.722,364,6.894,0.779
443,43.696,0.726,366,6.93,0.784
445,43.894,0.729,368,6.963,0.787
447,44.068,0.732,369,6.997,0.79
449,44.278,0.735,371,7.026,0.794
451,44.464,0.738,373,7.058,0.797
453,44.626,0.741,374,7.086,0.8
455,44.836,0.744,376,7.115,0.804
457,45.004,0.747,377,7.143,0.807
459,45.214,0.751,379,7.175,0.811
461,45.418,0.754,380,7.205,0.814
463,45.604,0.757,382,7.238,0.818
465,45.808,0.761,384,7.268,0.821
467,45.994,0.764,385,7.299,0.825
469,46.216,0.768,387,7.331,0.829
471,46.396,0.77,389,7.364,0.832
473,46.576,0.773,390,7.394,0.835
475,46.804,0.777,392,7.426,0.839
477,46.966,0.78,394,7.457,0.843
479,47.146,0.783,395,7.487,0.845
481,47.338,0.786,397,7.515,0.849
483,47.536,0.79,398,7.546,0.853
485,47.734,0.793,400,7.578,0.856
487,47.926,0.797,402,7.611,0.86
489,48.106,0.799,403,7.641,0.863
491,48.286,0.802,405,7.671,0.866
493,48.508,0.806,406,7.699,0.871
495,48.688,0.809,408,7.73,0.874
497,48.874,0.812,410,7.762,0.877
499,49.036,0.815,411,7.79,0.88
501,49.228,0.818,413,7.816,0.883
503,49.378,0.82,414,7.843,0.886
505,49.564,0.823,416,7.871,0.889
507,49.786,0.827,417,7.899,0.893
509,49.948,0.83,419,7.931,0.896
511,50.146,0.834,420,7.96,0.9
513,50.344,0.837,422,7.99,0.903
515,50.554,0.84,424,8.022,0.907
517,50.728,0.843,425,8.051,0.91
519,50.908,0.846,427,8.083,0.914
521,51.088,0.849,428,8.111,0.917
523,51.286,0.852,430,8.141,0.92
525,51.496,0.856,431,8.172,0.924
527,51.676,0.859,433,8.206,0.928
529,51.886,0.862,435,8.239,0.931
531,52.084,0.865,437,8.273,0.935
533,52.264,0.869,439,8.306,0.938
535,52.414,0.871,440,8.334,0.941
537,52.606,0.874,441,8.362,0.944
539,52.828,0.878,443,8.391,0.948
541,53.026,0.881,445,8.425,0.952
543,53.236,0.885,447,8.458,0.956
545,53.458,0.888,448,8.494,0.959
547,53.626,0.891,450,8.525,0.963
549,53.854,0.895,452,8.559,0.967
551,54.016,0.898,454,8.59,0.969
553,54.226,0.901,455,8.622,0.974
555,54.418,0.905,457,8.653,0.977
557,54.574,0.907,458,8.683,0.979
559,54.766,0.91,460,8.713,0.983
561,54.946,0.913,462,8.742,0.986
563,55.138,0.916,463,8.772,0.99
565,55.348,0.92,465,8.804,0.994
567,55.558,0.924,467,8.839,0.998
569,55.768,0.927,469,8.874,1.001
571,55.966,0.93,470,8.91,1.005
573,56.146,0.933,472,8.939,1.008
575,56.308,0.936,474,8.969,1.011
577,56.506,0.94,475,8.995,1.015
579,56.686,0.942,477,9.025,1.017
581,56.878,0.946,478,9.054,1.022
583,57.046,0.948,480,9.084,1.024
585,57.256,0.952,481,9.114,1.028
587,57.448,0.955,483,9.145,1.032
589,57.688,0.959,485,9.181,1.036
591,57.874,0.962,487,9.214,1.039
593,58.048,0.965,488,9.246,1.042
595,58.246,0.969,490,9.274,1.046
597,58.438,0.972,491,9.305,1.049
599,58.624,0.975,493,9.337,1.053
601,58.828,0.978,495,9.368,1.056
603,59.014,0.981,496,9.398,1.06
605,59.236,0.985,498,9.431,1.064
607,59.416,0.988,500,9.465,1.067
609,59.596,0.991,501,9.496,1.071
611,59.776,0.994,503,9.526,1.074
613,59.956,0.997,505,9.556,1.077
615,60.154,1.001,506,9.586,1.081
617,60.346,1.004,508,9.615,1.084
619,60.544,1.007,509,9.647,1.087
621,60.748,1.01,511,9.675,1.091
623,60.964,1.014,513,9.708,1.095
625,61.156,1.017,514,9.742,1.098
627,61.366,1.02,516,9.773,1.102
629,61.558,1.024,518,9.805,1.105
631,61.768,1.027,519,9.835,1.11
633,61.978,1.03,521,9.868,1.113
635,62.176,1.034,523,9.901,1.117
637,62.356,1.037,524,9.933,1.12
639,62.554,1.041,526,9.963,1.124
641,62.734,1.044,528,9.992,1.127
643,62.926,1.046,529,10.024,1.13
645,63.118,1.05,531,10.054,1.134
647,63.346,1.054,533,10.087,1.138
649,63.544,1.057,534,10.121,1.142
651,63.736,1.06,536,10.154,1.145
653,63.916,1.063,538,10.186,1.148
655,64.134,1.067,539,10.215,1.152
657,64.336,1.07,541,10.247,1.156
659,64.504,1.073,543,10.278,1.158
661,64.684,1.076,544,10.306,1.162
663,64.888,1.079,546,10.334,1.166
665,65.056,1.082,547,10.364,1.169
667,65.224,1.085,549,10.392,1.172
669,65.416,1.088,550,10.418,1.175
671,65.656,1.092,552,10.449,1.18
673,65.866,1.095,553,10.483,1.183
675,66.046,1.099,555,10.514,1.186
677,66.256,1.102,557,10.546,1.19
679,66.436,1.106,558,10.574,1.194
681,66.616,1.108,560,10.603,1.196
683,66.808,1.112,561,10.631,1.201
685,66.976,1.114,563,10.661,1.203
687,67.156,1.117,564,10.689,1.207
689,67.378,1.121,566,10.719,1.211
691,67.576,1.124,568,10.752,1.214
693,67.774,1.127,569,10.784,1.217
695,67.984,1.131,571,10.815,1.222
697,68.188,1.134,573,10.845,1.225
699,68.416,1.138,574,10.878,1.229
701,68.608,1.142,576,10.91,1.233
703,68.806,1.145,578,10.94,1.236
705,68.968,1.148,579,10.967,1.24
707,69.154,1.151,581,10.995,1.243
709,69.358,1.154,582,11.023,1.246
711,69.568,1.157,584,11.053,1.25
713,69.766,1.161,585,11.083,1.254
715,69.946,1.164,587,11.114,1.257
717,70.156,1.167,588,11.144,1.261
719,70.354,1.17,590,11.172,1.264
721,70.546,1.174,592,11.203,1.267
723,70.726,1.177,593,11.233,1.271
725,70.924,1.181,595,11.263,1.275
727,71.098,1.183,596,11.293,1.278
729,71.278,1.186,598,11.322,1.281
731,71.464,1.189,599,11.35,1.284
733,71.656,1.192,601,11.38,1.288
735,71.806,1.196,602,11.406,1.291
737,71.956,1.198,604,11.432,1.294
739,72.148,1.201,605,11.456,1.297
741,72.328,1.204,606,11.482,1.3
743,72.514,1.207,608,11.512,1.304
745,72.688,1.21,609,11.54,1.306
747,72.886,1.213,611,11.567,1.31
749,73.066,1.216,612,11.597,1.313
751,73.258,1.219,614,11.625,1.316
753,73.468,1.223,615,11.655,1.321
755,73.696,1.227,617,11.686,1.325
757,73.876,1.23,619,11.718,1.328
759,74.074,1.233,620,11.748,1.332
761,74.278,1.236,622,11.777,1.335
763,74.428,1.238,623,11.805,1.337
765,74.608,1.242,625,11.831,1.341
767,74.818,1.246,626,11.859,1.345
769,75.016,1.249,628,11.889,1.348
771,75.238,1.253,629,11.922,1.353
773,75.436,1.256,631,11.954,1.356
775,75.604,1.259,633,11.982,1.359
777,75.796,1.262,634,12.008,1.363
779,75.946,1.264,635,12.034,1.365
781,76.138,1.267,637,12.06,1.369
783,76.336,1.27,638,12.086,1.372
785,76.528,1.274,640,12.113,1.375
787,76.714,1.277,641,12.141,1.379
789,76.924,1.281,643,12.171,1.383
791,77.104,1.284,644,12.199,1.386
793,77.308,1.287,646,12.229,1.39
795,77.518,1.29,647,12.256,1.393
797,77.704,1.293,649,12.286,1.397
799,77.908,1.297,650,12.314,1.4
801,78.076,1.3,652,12.342,1.403
803,78.286,1.303,653,12.37,1.408
805,78.466,1.306,655,12.398,1.411
807,78.664,1.31,656,12.425,1.414
809,78.874,1.314,658,12.457,1.418
811,79.048,1.317,659,12.487,1.422
813,79.234,1.32,661,12.515,1.425
815,79.426,1.323,662,12.541,1.428
817,79.594,1.325,664,12.567,1.431
819,79.816,1.329,665,12.593,1.435
821,79.978,1.332,666,12.619,1.438
823,80.218,1.335,668,12.647,1.442
825,80.428,1.339,669,12.676,1.446
827,80.596,1.342,671,12.708,1.449
829,80.806,1.346,672,12.736,1.453
831,80.956,1.348,674,12.762,1.456
833,81.148,1.351,675,12.786,1.459
835,81.316,1.354,676,12.81,1.462
837,81.526,1.357,678,12.836,1.466
839,81.748,1.361,679,12.864,1.47
841,81.916,1.364,681,12.894,1.473
843,82.108,1.367,682,12.92,1.476
845,82.324,1.371,684,12.947,1.48
847,82.528,1.375,685,12.977,1.484
849,82.696,1.377,687,13.005,1.487
851,82.906,1.381,688,13.033,1.491
853,83.098,1.384,690,13.061,1.494
855,83.308,1.387,691,13.089,1.498
857,83.506,1.391,693,13.116,1.502
859,83.704,1.394,694,13.144,1.506
861,83.884,1.397,695,13.17,1.508
863,84.046,1.4,697,13.194,1.511
865,84.226,1.403,698,13.219,1.515
867,84.406,1.405,699,13.243,1.518
869,84.586,1.408,701,13.269,1.521
871,84.784,1.412,702,13.295,1.525
873,84.988,1.415,703,13.323,1.528
875,85.168,1.418,705,13.349,1.532
877,85.366,1.421,706,13.376,1.535
879,85.576,1.425,708,13.404,1.539
881,85.774,1.428,709,13.432,1.543
883,85.978,1.432,711,13.462,1.546
885,86.206,1.435,712,13.492,1.55
887,86.398,1.439,714,13.521,1.554
889,86.614,1.443,716,13.553,1.558
891,86.806,1.446,717,13.583,1.561
893,86.968,1.449,719,13.61,1.565
895,87.154,1.452,720,13.635,1.568
897,87.346,1.455,721,13.661,1.571
899,87.544,1.458,723,13.687,1.575
901,87.706,1.46,724,13.711,1.577
903,87.904,1.464,725,13.737,1.581
905,88.084,1.467,727,13.761,1.584
907,88.288,1.47,728,13.787,1.587
909,88.498,1.474,729,13.815,1.592
911,88.708,1.477,731,13.844,1.595
913,88.894,1.48,732,13.872,1.598
915,89.044,1.483,734,13.898,1.602
917,89.254,1.486,735,13.922,1.605
919,89.446,1.49,736,13.948,1.609
921,89.638,1.493,738,13.976,1.612
923,89.836,1.496,739,14.004,1.616
925,90.016,1.499,741,14.03,1.619
927,90.238,1.503,742,14.06,1.623
929,90.424,1.506,744,14.09,1.626
931,90.604,1.509,745,14.117,1.63
933,90.814,1.513,747,14.145,1.634
935,90.976,1.515,748,14.171,1.636
937,91.138,1.518,750,14.197,1.64
939,91.336,1.522,751,14.22,1.643
941,91.546,1.525,752,14.246,1.647
943,91.786,1.529,754,14.274,1.651
945,91.954,1.532,755,14.303,1.654
947,92.134,1.535,757,14.329,1.657
949,92.338,1.538,758,14.355,1.661
951,92.536,1.541,759,14.381,1.664
953,92.746,1.545,761,14.409,1.668
955,92.914,1.547,762,14.435,1.671
957,93.124,1.551,764,14.461,1.675
959,93.328,1.554,765,14.487,1.679
961,93.544,1.558,766,14.517,1.683
963,93.706,1.561,768,14.545,1.685
965,93.928,1.565,769,14.573,1.69
967,94.108,1.568,771,14.6,1.693
969,94.324,1.572,772,14.628,1.697
971,94.498,1.574,774,14.656,1.7
973,94.684,1.578,775,14.684,1.704
975,94.894,1.581,777,14.71,1.707
977,95.038,1.583,778,14.736,1.71
979,95.236,1.586,779,14.758,1.713
981,95.416,1.59,781,14.782,1.717
983,95.596,1.593,782,14.807,1.72
985,95.824,1.597,783,14.833,1.724
987,96.004,1.599,785,14.86,1.727
989,96.238,1.603,786,14.888,1.731
991,96.406,1.606,787,14.914,1.734
993,96.586,1.609,789,14.94,1.738
995,96.796,1.612,790,14.966,1.741
997,96.964,1.615,791,14.99,1.744
999,97.114,1.618,793,15.015,1.747
1001,97.318,1.621,794,15.037,1.75
1003,97.516,1.624,795,15.063,1.754
1005,97.708,1.628,797,15.091,1.758
1007,97.906,1.631,798,15.119,1.761
1009,98.068,1.634,800,15.145,1.765
1011,98.254,1.637,801,15.169,1.768
1013,98.428,1.64,802,15.195,1.771
1015,98.596,1.643,804,15.219,1.774
1017,98.806,1.647,805,15.245,1.778
1019,98.998,1.65,806,15.271,1.782
1021,99.178,1.652,808,15.297,1.784
1023,99.388,1.656,809,15.323,1.788
1025,99.574,1.659,810,15.347,1.792
1027,99.766,1.662,812,15.373,1.795
1029,99.946,1.665,813,15.397,1.798
1031,100.186,1.669,814,15.425,1.803
1033,100.354,1.672,816,15.453,1.805
1035,100.576,1.676,817,15.481,1.81
1037,100.768,1.679,819,15.507,1.813
1039,100.936,1.682,820,15.533,1.816
1041,101.146,1.685,821,15.557,1.82
1043,101.356,1.689,823,15.583,1.823
1045,101.536,1.691,824,15.609,1.826
1047,101.716,1.694,826,15.635,1.83
1049,101.908,1.698,827,15.659,1.833
1051,102.064,1.701,828,15.683,1.837
1053,102.286,1.705,829,15.709,1.841
1055,102.496,1.708,831,15.737,1.844
1057,102.676,1.711,832,15.765,1.847
1059,102.898,1.715,834,15.791,1.852
1061,103.126,1.719,835,15.821,1.856
1063,103.324,1.722,837,15.849,1.859
1065,103.516,1.725,838,15.875,1.863
1067,103.696,1.728,839,15.899,1.866
1069,103.894,1.731,841,15.925,1.869
1071,104.074,1.734,842,15.949,1.873
1073,104.278,1.737,843,15.973,1.876
1075,104.476,1.74,845,15.999,1.88
1077,104.668,1.744,846,16.025,1.883
1079,104.884,1.748,847,16.051,1.887
1081,105.064,1.751,849,16.077,1.89
1083,105.214,1.753,850,16.099,1.893
1085,105.436,1.757,851,16.123,1.897
1087,105.628,1.76,853,16.149,1.901
1089,105.844,1.764,854,16.177,1.904
1091,106.006,1.766,855,16.201,1.907
1093,106.198,1.769,857,16.226,1.911
1095,106.354,1.772,858,16.252,1.914
1097,106.504,1.775,859,16.274,1.917
1099,106.708,1.778,860,16.296,1.92
1101,106.906,1.782,862,16.32,1.924
1103,107.104,1.785,863,16.346,1.928
1105,107.314,1.788,864,16.372,1.931
1107,107.524,1.792,866,16.398,1.935
1109,107.728,1.795,867,16.422,1.939
1111,107.914,1.798,868,16.448,1.942
1113,108.118,1.801,870,16.474,1.945
1115,108.346,1.805,871,16.5,1.95
1117,108.568,1.809,873,16.528,1.954
1119,108.778,1.812,874,16.556,1.957
1121,108.964,1.816,876,16.582,1.961
1123,109.174,1.819,877,16.608,1.965
1125,109.378,1.823,878,16.632,1.968
1127,109.588,1.826,880,16.66,1.972
1129,109.804,1.83,881,16.688,1.976
1131,109.978,1.833,883,16.714,1.979
1133,110.206,1.837,884,16.74,1.983
1135,110.368,1.84,885,16.766,1.987
1137,110.548,1.842,887,16.792,1.989
1139,110.704,1.845,888,16.812,1.993
1141,110.878,1.848,889,16.833,1.995
1143,111.046,1.851,890,16.853,1.999
1145,111.238,1.854,891,16.876,2.002
1147,111.418,1.857,892,16.898,2.005
1149,111.616,1.86,893,16.922,2.009
1151,111.808,1.863,895,16.948,2.012
1153,111.994,1.866,896,16.972,2.015
1155,112.204,1.87,898,16.998,2.02
1157,112.414,1.873,899,17.024,2.023
1159,112.594,1.877,900,17.05,2.026
1161,112.828,1.88,902,17.074,2.031
1163,112.984,1.883,903,17.099,2.033
1165,113.206,1.887,904,17.124,2.037
1167,113.416,1.89,906,17.151,2.041
1169,113.608,1.893,907,17.176,2.045
1171,113.824,1.897,908,17.202,2.049
1173,114.016,1.9,910,17.229,2.052
1175,114.226,1.904,911,17.256,2.056
1177,114.448,1.908,913,17.284,2.06
1179,114.616,1.91,914,17.308,2.063
1181,114.838,1.914,915,17.333,2.067
1183,115.006,1.917,916,17.357,2.07
1185,115.198,1.92,918,17.381,2.073
1187,115.354,1.923,919,17.401,2.076
1189,115.564,1.926,920,17.424,2.08
1191,115.744,1.929,921,17.446,2.083
1193,115.936,1.932,922,17.47,2.086
1195,116.116,1.935,924,17.492,2.09
1197,116.308,1.938,925,17.516,2.093
1199,116.506,1.941,926,17.539,2.097
1201,116.704,1.945,927,17.563,2.101
1203,116.914,1.948,929,17.589,2.104
1205,117.076,1.952,930,17.613,2.108
1207,117.274,1.955,931,17.637,2.111
1209,117.508,1.959,933,17.661,2.115
1211,117.676,1.962,934,17.687,2.118
1213,117.886,1.965,935,17.711,2.122
1215,118.054,1.968,936,17.734,2.125
1217,118.234,1.971,938,17.758,2.129
1219,118.408,1.974,939,17.778,2.131
1221,118.594,1.977,940,17.801,2.135
1223,118.798,1.98,941,17.823,2.138
1225,119.008,1.984,942,17.847,2.142
1227,119.158,1.986,944,17.871,2.145
1229,119.326,1.989,945,17.892,2.148
1231,119.518,1.992,946,17.912,2.151
1233,119.716,1.995,947,17.934,2.155
1235,119.896,1.998,948,17.958,2.158
1237,120.136,2.002,949,17.983,2.162
1239,120.358,2.006,951,18.009,2.167
1241,120.574,2.009,952,18.036,2.17
1243,120.748,2.013,954,18.062,2.173
1245,120.934,2.016,955,18.087,2.177
1247,121.096,2.019,956,18.107,2.18
1249,121.294,2.022,957,18.131,2.183
1251,121.498,2.025,959,18.155,2.187
1253,121.696,2.029,960,18.181,2.191
1255,121.906,2.032,961,18.205,2.194
1257,122.074,2.035,963,18.23,2.198
1259,122.284,2.038,964,18.254,2.201
1261,122.488,2.042,965,18.276,2.205
1263,122.698,2.045,966,18.298,2.209
1265,122.908,2.049,967,18.322,2.212
1267,123.094,2.053,969,18.345,2.217
1269,123.286,2.054,969,18.352,2.218
1271,123.496,2.059,969,18.358,2.223
1273,123.676,2.062,970,18.378,2.227
1275,123.886,2.065,972,18.408,2.23
1277,124.066,2.068,973,18.432,2.233
1279,124.234,2.07,974,18.454,2.236
1281,124.468,2.074,976,18.478,2.24
1283,124.678,2.078,977,18.503,2.244
1285,124.876,2.081,978,18.53,2.248
1287,125.044,2.085,980,18.555,2.251
1289,125.266,2.088,981,18.579,2.255
1291,125.464,2.091,982,18.603,2.259
1293,125.656,2.095,984,18.629,2.262
1295,125.836,2.098,985,18.653,2.265
1297,126.016,2.101,986,18.675,2.269
1299,126.196,2.104,987,18.698,2.272
1301,126.394,2.107,988,18.718,2.276
1303,126.586,2.11,989,18.74,2.279
1305,126.796,2.113,991,18.763,2.282
1307,126.958,2.117,992,18.785,2.286
1309,127.138,2.12,993,18.807,2.289
1311,127.306,2.122,994,18.828,2.292
1313,127.528,2.126,995,18.848,2.296
1315,127.726,2.129,996,18.87,2.299
1317,127.918,2.132,998,18.895,2.303
1319,128.116,2.135,999,18.919,2.306
1321,128.296,2.138,1000,18.941,2.309
1323,128.506,2.142,1001,18.965,2.314
1325,128.71,2.146,1003,18.987,2.317
1327,128.914,2.149,1004,19.012,2.321
1329,129.076,2.152,1005,19.034,2.324
1331,129.274,2.155,1006,19.056,2.327
1333,129.478,2.159,1007,19.08,2.331
1335,129.664,2.162,1009,19.104,2.335
1337,129.856,2.165,1010,19.129,2.338
1339,130.024,2.168,1011,19.149,2.341
1341,130.216,2.171,1012,19.169,2.345
1343,130.384,2.174,1013,19.19,2.347
1345,130.584,2.177,1014,19.21,2.352
1347,130.816,2.181,1015,19.233,2.355
1349,131.008,2.184,1017,19.255,2.358
1351,131.176,2.187,1018,19.275,2.362
1353,131.344,2.189,1019,19.296,2.364
1355,131.554,2.193,1020,19.316,2.368
1357,131.728,2.196,1021,19.337,2.371
1359,131.938,2.199,1022,19.359,2.375
1361,132.136,2.203,1023,19.379,2.379
1363,132.316,2.206,1024,19.402,2.382
1365,132.514,2.209,1025,19.422,2.385
1367,132.718,2.213,1027,19.442,2.39
1369,132.946,2.217,1028,19.465,2.394
1371,133.114,2.219,1029,19.489,2.397
1373,133.264,2.222,1030,19.509,2.4
1375,133.474,2.225,1031,19.53,2.403
1377,133.696,2.229,1032,19.552,2.407
1379,133.918,2.233,1034,19.576,2.412
1381,134.116,2.236,1035,19.598,2.415
1383,134.278,2.239,1036,19.619,2.417
1385,134.488,2.242,1037,19.639,2.422
1387,134.656,2.245,1038,19.658,2.424
1389,134.848,2.248,1039,19.678,2.428
1391,135.028,2.251,1040,19.699,2.431
1393,135.238,2.255,1041,19.719,2.435
1395,135.448,2.258,1042,19.74,2.439
1397,135.616,2.261,1043,19.762,2.442
1399,135.808,2.264,1045,19.782,2.445
1401,135.988,2.267,1045,19.801,2.449
1403,136.216,2.271,1047,19.821,2.452
1405,136.396,2.274,1048,19.844,2.455
1407,136.606,2.278,1049,19.866,2.46
1409,136.786,2.281,1050,19.886,2.463
1411,137.008,2.284,1051,19.909,2.466
1413,137.206,2.288,1052,19.929,2.471
1415,137.404,2.291,1054,19.953,2.474
1417,137.638,2.295,1055,19.975,2.478
1419,137.836,2.299,1056,19.998,2.482
1421,138.034,2.302,1057,20.02,2.486
1423,138.184,2.304,1058,20.037,2.488
1425,138.394,2.307,1059,20.055,2.492
1427,138.604,2.311,1060,20.076,2.496
1429,138.808,2.314,1061,20.096,2.499
1431,138.976,2.317,1062,20.115,2.503
1433,139.174,2.321,1063,20.135,2.506
1435,139.348,2.323,1064,20.154,2.509
1437,139.558,2.327,1065,20.174,2.513
1439,139.726,2.329,1066,20.193,2.515
1441,139.918,2.333,1067,20.211,2.519
1443,140.164,2.337,1068,20.232,2.524
1445,140.374,2.34,1069,20.254,2.527
1447,140.554,2.343,1070,20.275,2.531
1449,140.758,2.346,1072,20.295,2.534
1451,140.926,2.35,1073,20.314,2.537
1453,141.106,2.353,1074,20.332,2.541
1455,141.286,2.356,1075,20.353,2.544
1457,141.496,2.36,1076,20.373,2.548
1459,141.706,2.363,1077,20.392,2.552
1461,141.898,2.366,1078,20.414,2.555
1463,142.096,2.369,1079,20.432,2.558
1465,142.306,2.373,1080,20.451,2.563
1467,142.516,2.376,1081,20.47,2.566
1469,142.714,2.38,1082,20.49,2.57
1471,142.894,2.382,1083,20.509,2.573
1473,143.086,2.385,1084,20.527,2.576
1475,143.296,2.389,1085,20.546,2.58
1477,143.476,2.393,1086,20.564,2.584
1479,143.626,2.395,1087,20.581,2.586
1481,143.836,2.398,1087,20.596,2.59
1483,144.028,2.401,1088,20.614,2.593
1485,144.256,2.405,1089,20.633,2.597
1487,144.436,2.408,1090,20.652,2.601
1489,144.628,2.411,1091,20.672,2.604
1491,144.796,2.415,1092,20.689,2.607
1493,144.988,2.418,1093,20.705,2.611
1495,145.168,2.421,1094,20.722,2.614
1497,145.366,2.425,1095,20.741,2.618
1499,145.558,2.427,1096,20.759,2.621
1501,145.774,2.431,1097,20.778,2.625
1503,145.966,2.434,1098,20.795,2.629
1505,146.176,2.437,1099,20.811,2.632
1507,146.398,2.441,1100,20.828,2.636
1509,146.614,2.445,1101,20.847,2.64
1511,146.854,2.449,1102,20.865,2.645
1513,147.034,2.452,1103,20.884,2.648
1515,147.214,2.455,1104,20.9,2.651
1517,147.358,2.458,1104,20.913,2.654
1519,147.544,2.46,1105,20.926,2.657
1521,147.718,2.463,1106,20.941,2.66
1523,147.886,2.466,1106,20.954,2.663
1525,148.054,2.468,1107,20.967,2.666
1527,148.288,2.472,1108,20.982,2.67
1529,148.498,2.476,1109,20.999,2.674
1531,148.678,2.479,1110,21.016,2.678
1533,148.846,2.482,1110,21.029,2.681
1535,149.038,2.486,1111,21.043,2.684
1537,149.218,2.489,1112,21.058,2.688
1539,149.428,2.492,1113,21.073,2.691
1541,149.596,2.495,1113,21.088,2.694
1543,149.818,2.498,1114,21.101,2.698
1545,149.968,2.501,1115,21.114,2.7
1547,150.178,2.504,1116,21.127,2.705
1549,150.388,2.507,1116,21.14,2.708
1551,150.574,2.511,1117,21.155,2.711
1553,150.779,2.514,1118,21.17,2.715
1555,150.958,2.518,1118,21.183,2.719
1557,151.168,2.521,1119,21.196,2.722
1559,151.324,2.523,1120,21.207,2.725
1561,151.528,2.527,1120,21.22,2.729
1563,151.738,2.53,1121,21.233,2.732
1565,151.936,2.533,1122,21.246,2.736
1567,152.128,2.537,1122,21.259,2.74
1569,152.326,2.54,1123,21.272,2.743
1571,152.536,2.543,1124,21.285,2.747
1573,152.716,2.547,1125,21.298,2.75
1575,152.896,2.55,1125,21.311,2.753
1577,153.094,2.554,1126,21.324,2.758
1579,153.298,2.557,1127,21.337,2.761
1581,153.496,2.56,1127,21.348,2.764
1583,153.688,2.563,1128,21.357,2.768
1585,153.916,2.567,1128,21.368,2.772
1587,154.108,2.57,1129,21.38,2.775
1589,154.258,2.572,1129,21.391,2.778
1591,154.414,2.575,1130,21.4,2.78
1593,154.576,2.578,1130,21.407,2.784
1595,154.774,2.581,1131,21.419,2.787
1597,154.954,2.584,1131,21.428,2.791
1599,155.146,2.587,1132,21.439,2.794
1601,155.338,2.59,1132,21.448,2.797
1603,155.536,2.593,1133,21.458,2.801
1605,155.716,2.597,1133,21.467,2.804
1607,155.908,2.6,1134,21.478,2.808
1609,156.094,2.603,1135,21.487,2.811
1611,156.304,2.607,1135,21.498,2.815
1613,156.508,2.61,1136,21.508,2.818
1615,156.676,2.613,1136,21.519,2.822
1617,156.904,2.617,1137,21.528,2.826
1619,157.066,2.62,1137,21.537,2.829
1621,157.264,2.623,1138,21.547,2.833
1623,157.438,2.626,1138,21.554,2.835
1625,157.654,2.63,1138,21.56,2.84
1627,157.846,2.633,1139,21.567,2.843
1629,157.996,2.635,1139,21.573,2.846
1631,158.176,2.638,1139,21.578,2.849
1633,158.356,2.641,1140,21.584,2.852
1635,158.524,2.644,1140,21.589,2.855
1637,158.704,2.647,1140,21.595,2.858
1639,158.878,2.65,1141,21.603,2.862
1641,159.028,2.652,1141,21.608,2.864
1643,159.214,2.655,1141,21.614,2.867
1645,159.424,2.658,1141,21.619,2.871
1647,159.646,2.662,1142,21.625,2.875
1649,159.856,2.666,1142,21.63,2.879
1651,160.006,2.669,1142,21.636,2.882
1653,160.156,2.671,1143,21.64,2.884
1655,160.42,2.676,1143,21.643,2.889
1657,160.624,2.679,1143,21.649,2.893
1659,160.846,2.683,1143,21.656,2.897
1661,161.026,2.686,1144,21.662,2.9
1663,161.248,2.69,1144,21.666,2.905
1665,161.464,2.693,1144,21.667,2.908
1667,161.674,2.697,1144,21.669,2.912
1669,161.884,2.7,1144,21.671,2.916
1671,162.034,2.702,1144,21.673,2.918
1673,162.226,2.705,1144,21.675,2.921
1675,162.436,2.709,1145,21.677,2.926
1677,162.604,2.712,1145,21.677,2.928
1679,162.796,2.715,1145,21.68,2.932
1681,162.946,2.717,1145,21.68,2.934
1683,163.108,2.72,1145,21.682,2.938
1685,163.264,2.722,1145,21.684,2.94
1687,163.474,2.726,1145,21.686,2.944
1689,163.648,2.73,1145,21.688,2.948
1691,163.846,2.733,1145,21.69,2.951
1693,164.008,2.735,1145,21.692,2.954
1695,164.206,2.739,1145,21.692,2.958
1697,164.368,2.741,1145,21.694,2.96
1699,164.536,2.744,1145,21.693,2.964
1701,164.746,2.748,1146,21.695,2.968
1703,164.938,2.752,1146,21.695,2.971
1705,165.136,2.755,1146,21.695,2.975
1707,165.334,2.758,1145,21.694,2.978
1709,165.544,2.761,1145,21.692,2.981
1711,165.724,2.764,1145,21.69,2.985
1713,165.904,2.767,1145,21.688,2.988
1715,166.078,2.769,1145,21.686,2.991
1717,166.264,2.773,1145,21.684,2.995
1719,166.468,2.776,1145,21.682,2.998
1721,166.684,2.78,1145,21.679,3.002
1723,166.888,2.784,1145,21.677,3.006
1725,167.056,2.786,1144,21.675,3.009
1727,167.254,2.79,1144,21.673,3.013
1729,167.458,2.793,1144,21.669,3.016
1731,167.644,2.796,1144,21.668,3.019
1733,167.848,2.799,1144,21.666,3.023
1735,168.034,2.802,1144,21.664,3.026
1737,168.196,2.805,1144,21.662,3.03
1739,168.394,2.808,1144,21.66,3.033
1741,168.586,2.812,1143,21.656,3.037
1743,168.784,2.816,1143,21.655,3.041
1745,168.958,2.818,1143,21.651,3.043
1747,169.126,2.821,1143,21.647,3.046
1749,169.336,2.824,1143,21.641,3.05
1751,169.546,2.828,1142,21.638,3.054
1753,169.726,2.831,1142,21.632,3.057
1755,169.924,2.834,1142,21.627,3.061
1757,170.158,2.838,1142,21.621,3.065
1759,170.356,2.841,1141,21.615,3.068
1761,170.548,2.845,1141,21.61,3.072
1763,170.734,2.848,1141,21.604,3.075
1765,170.938,2.851,1140,21.597,3.079
1767,171.124,2.854,1140,21.591,3.082
1769,171.328,2.857,1140,21.588,3.086
1771,171.538,2.861,1140,21.582,3.09
1773,171.736,2.864,1139,21.575,3.093
1775,171.904,2.867,1139,21.569,3.096
1777,172.084,2.87,1139,21.564,3.1
1779,172.264,2.873,1138,21.56,3.103
1781,172.474,2.877,1138,21.554,3.107
1783,172.696,2.881,1138,21.551,3.112
1785,172.906,2.884,1137,21.543,3.115
1787,173.068,2.887,1137,21.534,3.117
1789,173.278,2.891,1137,21.526,3.122
1791,173.464,2.894,1136,21.517,3.125
1793,173.644,2.896,1136,21.51,3.128
1795,173.848,2.9,1135,21.5,3.131
1797,174.028,2.902,1135,21.491,3.134
1799,174.214,2.906,1134,21.484,3.138
1801,174.406,2.909,1134,21.476,3.141
1803,174.616,2.913,1133,21.467,3.145
1805,174.814,2.916,1133,21.458,3.149
1807,174.976,2.919,1133,21.45,3.152
1809,175.168,2.921,1132,21.441,3.155
1811,175.366,2.925,1132,21.433,3.159
1813,175.558,2.928,1131,21.424,3.162
1815,175.756,2.931,1131,21.417,3.166
1817,175.936,2.934,1130,21.407,3.169
1819,176.128,2.938,1130,21.4,3.173
1821,176.326,2.942,1130,21.393,3.177
1823,176.518,2.945,1129,21.385,3.18
1825,176.698,2.948,1129,21.376,3.183
1827,176.896,2.951,1128,21.367,3.187
1829,177.046,2.953,1128,21.355,3.189
1831,177.256,2.957,1127,21.346,3.193
1833,177.436,2.959,1126,21.335,3.196
1835,177.628,2.963,1126,21.324,3.199
1837,177.826,2.966,1125,21.313,3.204
1839,177.976,2.969,1125,21.303,3.206
1841,178.168,2.972,1124,21.294,3.21
1843,178.348,2.975,1124,21.283,3.213
1845,178.546,2.978,1123,21.274,3.216
1847,178.726,2.981,1123,21.264,3.22
1849,178.924,2.985,1122,21.253,3.223
1851,179.128,2.988,1122,21.242,3.226
1853,179.314,2.991,1121,21.233,3.23
1855,179.464,2.993,1121,21.222,3.232
1857,179.644,2.996,1120,21.212,3.236
1859,179.854,3,1120,21.203,3.24
1861,180.058,3.004,1119,21.192,3.244
1863,180.286,3.007,1118,21.181,3.248
1865,180.466,3.011,1118,21.17,3.252
1867,180.658,3.013,1117,21.159,3.254
1869,180.868,3.017,1116,21.146,3.258
1871,181.036,3.02,1116,21.133,3.261
1873,181.246,3.024,1115,21.12,3.265
1875,181.396,3.026,1115,21.108,3.268
1877,181.588,3.029,1114,21.095,3.271
1879,181.804,3.033,1113,21.082,3.275
1881,181.996,3.036,1112,21.069,3.279
1883,182.194,3.039,1112,21.056,3.282
1885,182.386,3.042,1111,21.043,3.285
1887,182.566,3.046,1110,21.03,3.289
1889,182.746,3.049,1110,21.017,3.292
1891,182.926,3.051,1109,21.006,3.295
1893,183.118,3.055,1108,20.993,3.299
1895,183.304,3.058,1108,20.98,3.302
1897,183.496,3.061,1107,20.967,3.306
1899,183.714,3.065,1106,20.952,3.31
1901,183.904,3.068,1106,20.938,3.313
1903,184.096,3.071,1105,20.926,3.317
1905,184.276,3.074,1104,20.915,3.32
1907,184.498,3.078,1104,20.902,3.324
1909,184.696,3.081,1103,20.887,3.328
1911,184.906,3.085,1102,20.871,3.331
1913,185.086,3.088,1101,20.856,3.334
1915,185.254,3.09,1100,20.841,3.337
1917,185.464,3.094,1100,20.826,3.341
1919,185.698,3.098,1099,20.809,3.345
1921,185.92,3.101,1098,20.791,3.349
1923,186.094,3.104,1097,20.774,3.352
1925,186.244,3.107,1096,20.759,3.355
1927,186.436,3.11,1095,20.746,3.358
1929,186.586,3.113,1095,20.731,3.361
1931,186.766,3.115,1094,20.717,3.364
1933,186.934,3.118,1093,20.704,3.367
1935,187.138,3.122,1092,20.687,3.372
1937,187.318,3.124,1091,20.67,3.374
1939,187.504,3.128,1090,20.653,3.378
1941,187.684,3.131,1090,20.637,3.381
1943,187.906,3.135,1089,20.618,3.385
1945,188.056,3.137,1088,20.601,3.388
1947,188.224,3.14,1087,20.585,3.391
1949,188.428,3.143,1086,20.568,3.394
1951,188.596,3.146,1085,20.548,3.398
1953,188.806,3.149,1084,20.527,3.401
1955,188.986,3.153,1083,20.507,3.405
1957,189.136,3.155,1082,20.486,3.407
1959,189.316,3.158,1081,20.466,3.41
1961,189.496,3.161,1080,20.445,3.414
1963,189.694,3.164,1078,20.421,3.417
1965,189.916,3.168,1077,20.397,3.421
1967,190.096,3.171,1075,20.369,3.425
1969,190.318,3.175,1074,20.34,3.429
1971,190.528,3.178,1072,20.306,3.432
1973,190.724,3.182,1070,20.265,3.437
1975,190.906,3.185,1068,20.226,3.439
1977,191.128,3.189,1065,20.18,3.443
1979,191.356,3.192,1062,20.122,3.448
1981,191.536,3.196,1059,20.05,3.451
1983,191.704,3.198,1054,19.97,3.453
1985,191.908,3.202,1050,19.881,3.458
1987,192.076,3.205,1044,19.777,3.461
1989,192.238,3.207,1038,19.663,3.464
1991,192.418,3.21,1031,19.528,3.467
1993,192.586,3.213,1022,19.35,3.47
1995,192.778,3.219,994,18.828,3.476
1997,192.964,3.218,576,10.914,3.475
1999,193.144,3.219,165,3.12,3.476
2001,193.366,3.225,-27,-0.514,3.482
2003,193.576,3.229,-28,-0.522,3.487
2005,193.804,3.233,-28,-0.526,3.491
2007,193.966,3.236,-28,-0.526,3.494
2009,194.176,3.239,-28,-0.527,3.498
2011,194.368,3.243,-28,-0.527,3.502
2013,194.574,3.246,-28,-0.527,3.506
2015,194.776,3.25,-28,-0.527,3.509
2017,195.01,3.253,-28,-0.529,3.513
2019,195.214,3.257,-28,-0.529,3.517
2021,195.436,3.26,-28,-0.529,3.521
2023,195.646,3.264,-28,-0.529,3.524
2025,195.826,3.267,-28,-0.529,3.528
2027,196.006,3.27,-28,-0.529,3.531
2029,196.214,3.274,-28,-0.529,3.535
2031,196.408,3.277,-28,-0.529,3.539
2033,196.607,3.28,-28,-0.531,3.542
2035,196.786,3.283,-28,-0.531,3.545
2037,197.008,3.287,-28,-0.531,3.549
2039,197.224,3.29,-28,-0.529,3.553
2041,197.524,3.292,-28,-0.531,3.556
2043,197.728,3.292,-28,-0.531,3.556
2045,197.926,3.292,-28,-0.531,3.556
2047,198.118,3.292,-28,-0.531,3.556
2049,198.334,3.292,-28,-0.531,3.556
2051,198.544,3.292,-28,-0.531,3.556
2053,198.748,3.292,-28,-0.531,3.556
2055,198.946,3.292,-28,-0.531,3.555